{
  "Fat": {
    "Spectrum": [
      0.000313066,
      0.000313066,
      0.000313066,
      0.000313066,
      0.000313066,
      0.000313066,
      0.000313066,
      0.000313066,
      0.000313066,
      0.000313066,
      0.000313066,
      0.000313066,
      0.000313066,
      0.000313066,
      0.000313066,
      0.000313066,
      0.000313066,
      0.000313066,
      0.000313066,
      0.000313066,
      0.000313066,
      0.000313066,
      0.000313066,
      0.000313066,
      0.000313066,
      0.000313066,
      0.000313066,
      0.000301644,
      0.000295663,
      0.000291032,
      0.000284691,
      0.00027791,
      0.000285221,
      0.000296703,
      0.000308106,
      0.000319488,
      0.000313937,
      0.000302504,
      0.000282921,
      0.000260277,
      0.000240333,
      0.00022148,
      0.000204857,
      0.000189214,
      0.000176452,
      0.00016502,
      0.000161209,
      0.000161209,
      0.000152127,
      0.000138175,
      0.000127433,
      0.000118521,
      0.000115151,
      0.000115151,
      0.000108229,
      9.68E-05,
      9.82E-05,
      0.00010843,
      0.000125813,
      0.000148467,
      0.000171431,
      0.000194635,
      0.00022407,
      0.000258697,
      0.000299394,
      0.000345452,
      0.000373847,
      0.000385629,
      0.000391691,
      0.000392031,
      0.000414875,
      0.000461633,
      0.000518773,
      0.000587656,
      0.000655828,
      0.00072317,
      0.00077654,
      0.000812096,
      0.000852114,
      0.000898172,
      0.000928607,
      0.000936529,
      0.000902593,
      0.000804295,
      0.000690904,
      0.00055273,
      0.000425197,
      0.000316327,
      0.000225531,
      0.00016851,
      0.000122892,
      0.000100048,
      7.83E-05,
      5.9E-05,
      4.56E-05,
      4.59E-05,
      4.61E-05,
      4.61E-05,
      5.07E-05,
      6.76E-05,
      8.46E-05,
      0.000101948,
      0.000121812,
      0.000149657,
      0.000176732,
      0.000201226,
      0.000226411,
      0.000254116,
      0.000280801,
      0.000303295,
      0.000327299,
      0.000358135,
      0.00038638,
      0.000401612,
      0.000414935,
      0.000417535,
      0.000416695,
      0.000394001,
      0.000372347,
      0.000358145,
      0.000343182,
      0.000321868,
      0.000301314,
      0.000288352,
      0.00027636,
      0.00027636,
      0.00027636,
      0.00027636,
      0.00027687,
      0.000288002,
      0.000300204,
      0.000346042,
      0.000392411,
      0.000472565,
      0.00055273,
      0.000645186,
      0.000737653,
      0.0008876,
      0.001038387,
      0.00127863,
      0.001521574,
      0.001864436,
      0.002212199,
      0.002680183,
      0.003156169,
      0.003676462,
      0.004200457,
      0.004465905,
      0.004705548,
      0.004741754,
      0.004753956,
      0.004896282,
      0.005056711,
      0.005479287,
      0.005943271,
      0.006654499,
      0.007409835,
      0.008132265,
      0.008847994,
      0.009419297,
      0.009958494,
      0.010470886,
      0.010975977,
      0.011347044,
      0.011683105,
      0.011633096,
      0.011468066,
      0.010755938,
      0.009869378,
      0.008687065,
      0.007401633,
      0.006201817,
      0.005034107,
      0.004139046,
      0.003354204,
      0.002785502,
      0.002311116,
      0.001959153,
      0.0016643,
      0.001451061,
      0.00127863,
      0.001147207,
      0.001037587,
      0.000954982,
      0.00088768,
      0.000838131,
      0.000799384,
      0.000770879,
      0.000749005,
      0.000739573,
      0.000738743,
      0.000749995,
      0.000770149,
      0.000823808,
      0.000903763,
      0.001020684,
      0.001168611,
      0.001341742,
      0.001537177,
      0.001744714,
      0.001963354
    ],
    "Wavelengths": [
      600.0,
      602.0,
      604.0,
      606.0,
      608.0,
      610.0,
      612.0,
      614.0,
      616.0,
      618.0,
      620.0,
      622.0,
      624.0,
      626.0,
      628.0,
      630.0,
      632.0,
      634.0,
      636.0,
      638.0,
      640.0,
      642.0,
      644.0,
      646.0,
      648.0,
      650.0,
      652.0,
      654.0,
      656.0,
      658.0,
      660.0,
      662.0,
      664.0,
      666.0,
      668.0,
      670.0,
      672.0,
      674.0,
      676.0,
      678.0,
      680.0,
      682.0,
      684.0,
      686.0,
      688.0,
      690.0,
      692.0,
      694.0,
      696.0,
      698.0,
      700.0,
      702.0,
      704.0,
      706.0,
      708.0,
      710.0,
      712.0,
      714.0,
      716.0,
      718.0,
      720.0,
      722.0,
      724.0,
      726.0,
      728.0,
      730.0,
      732.0,
      734.0,
      736.0,
      738.0,
      740.0,
      742.0,
      744.0,
      746.0,
      748.0,
      750.0,
      752.0,
      754.0,
      756.0,
      758.0,
      760.0,
      762.0,
      764.0,
      766.0,
      768.0,
      770.0,
      772.0,
      774.0,
      776.0,
      778.0,
      780.0,
      782.0,
      784.0,
      786.0,
      788.0,
      790.0,
      792.0,
      794.0,
      796.0,
      798.0,
      800.0,
      802.0,
      804.0,
      806.0,
      808.0,
      810.0,
      812.0,
      814.0,
      816.0,
      818.0,
      820.0,
      822.0,
      824.0,
      826.0,
      828.0,
      830.0,
      832.0,
      834.0,
      836.0,
      838.0,
      840.0,
      842.0,
      844.0,
      846.0,
      848.0,
      850.0,
      852.0,
      854.0,
      856.0,
      858.0,
      860.0,
      862.0,
      864.0,
      866.0,
      868.0,
      870.0,
      872.0,
      874.0,
      876.0,
      878.0,
      880.0,
      882.0,
      884.0,
      886.0,
      888.0,
      890.0,
      892.0,
      894.0,
      896.0,
      898.0,
      900.0,
      902.0,
      904.0,
      906.0,
      908.0,
      910.0,
      912.0,
      914.0,
      916.0,
      918.0,
      920.0,
      922.0,
      924.0,
      926.0,
      928.0,
      930.0,
      932.0,
      934.0,
      936.0,
      938.0,
      940.0,
      942.0,
      944.0,
      946.0,
      948.0,
      950.0,
      952.0,
      954.0,
      956.0,
      958.0,
      960.0,
      962.0,
      964.0,
      966.0,
      968.0,
      970.0,
      972.0,
      974.0,
      976.0,
      978.0,
      980.0,
      982.0,
      984.0,
      986.0,
      988.0,
      990.0,
      992.0,
      994.0,
      996.0,
      998.0,
      1000.0
    ],
    "ChromophoreCoefficientType": "FractionalAbsorptionCoefficient",
    "AbsorptionCoefficientUnit": "InverseMillimeters",
    "MolarUnit": "None",
    "WavelengthUnit": "Nanometers",
    "Name": "Fat"
  },
  "H2O": {
    "Spectrum": [
      5.8E-05,
      3.8E-05,
      2.8E-05,
      2.47E-05,
      2.5E-05,
      3.2E-05,
      4.5E-05,
      7.9E-05,
      0.000301361,
      0.000310772,
      0.000317148,
      0.000326317,
      0.00033178,
      0.000335808,
      0.000339082,
      0.000342371,
      0.000345556,
      0.000348538,
      0.000351688,
      0.000354984,
      0.000358249,
      0.000361232,
      0.000364184,
      0.000367137,
      0.000369942,
      0.000372181,
      0.000374594,
      0.000377599,
      0.000380555,
      0.00038357,
      0.00038699,
      0.000390933,
      0.000395103,
      0.000400257,
      0.000405404,
      0.000411359,
      0.00041864,
      0.000428234,
      0.00043862,
      0.00044904,
      0.00045953,
      0.00046341,
      0.00046729,
      0.00047162,
      0.000476,
      0.00048123,
      0.00048702,
      0.00049263,
      0.0004979,
      0.00050335,
      0.00051179,
      0.00052023,
      0.00053635,
      0.00055465,
      0.00057365,
      0.00059334,
      0.00061459,
      0.0006413,
      0.00066801,
      0.00070141,
      0.0007352,
      0.00077553,
      0.00081911,
      0.00087178,
      0.00093872,
      0.0010084,
      0.0011003,
      0.0011921,
      0.0012777,
      0.0013621,
      0.0014746,
      0.0016096,
      0.0017669,
      0.0019821,
      0.0021974,
      0.0023893,
      0.0025813,
      0.0026869,
      0.0027594,
      0.0028082,
      0.0028272,
      0.0028436,
      0.002847,
      0.0028503,
      0.0028611,
      0.0028728,
      0.0028735,
      0.0028672,
      0.0028629,
      0.0028626,
      0.0028615,
      0.0028469,
      0.0028323,
      0.0028123,
      0.0027907,
      0.0027704,
      0.0027515,
      0.0027275,
      0.0026862,
      0.0026449,
      0.0025978,
      0.0025503,
      0.0025067,
      0.002465,
      0.0024226,
      0.0023792,
      0.002336,
      0.0022939,
      0.0022518,
      0.0022289,
      0.0022099,
      0.0021984,
      0.002193,
      0.0021932,
      0.0022081,
      0.002223,
      0.0022627,
      0.0023025,
      0.0023675,
      0.0024422,
      0.0025603,
      0.0027326,
      0.0029212,
      0.0031921,
      0.0034629,
      0.0036191,
      0.0037608,
      0.0038604,
      0.003933,
      0.0040004,
      0.0040571,
      0.0041131,
      0.0041565,
      0.0041999,
      0.0042426,
      0.0042851,
      0.0043369,
      0.0043981,
      0.0044566,
      0.004506,
      0.0045555,
      0.0046257,
      0.0046971,
      0.0047756,
      0.0048577,
      0.0049495,
      0.0050566,
      0.0051644,
      0.0052783,
      0.0053922,
      0.005497,
      0.0056,
      0.0057182,
      0.0058485,
      0.0059722,
      0.0060786,
      0.006185,
      0.0062922,
      0.0063994,
      0.0065231,
      0.0066532,
      0.0067955,
      0.0069531,
      0.0071212,
      0.0073413,
      0.0075615,
      0.0078922,
      0.0082367,
      0.0087093,
      0.0092633,
      0.0098433,
      0.010475,
      0.01113,
      0.012188,
      0.013246,
      0.014419,
      0.015625,
      0.017071,
      0.018757,
      0.02044,
      0.022112,
      0.023784,
      0.026747,
      0.029785,
      0.032953,
      0.036186,
      0.039088,
      0.041468,
      0.04374,
      0.045152,
      0.046564,
      0.047179,
      0.047635,
      0.048005,
      0.048306,
      0.048529,
      0.048549,
      0.048569,
      0.048205,
      0.04784,
      0.047304,
      0.046702,
      0.046001,
      0.045176,
      0.044345,
      0.043489,
      0.042632,
      0.041663,
      0.040679
    ],
    "Wavelengths": [
      400.0,
      425.0,
      450.0,
      475.0,
      500.0,
      525.0,
      550.0,
      575.0,
      600.0,
      602.0,
      604.0,
      606.0,
      608.0,
      610.0,
      612.0,
      614.0,
      616.0,
      618.0,
      620.0,
      622.0,
      624.0,
      626.0,
      628.0,
      630.0,
      632.0,
      634.0,
      636.0,
      638.0,
      640.0,
      642.0,
      644.0,
      646.0,
      648.0,
      650.0,
      652.0,
      654.0,
      656.0,
      658.0,
      660.0,
      662.0,
      664.0,
      666.0,
      668.0,
      670.0,
      672.0,
      674.0,
      676.0,
      678.0,
      680.0,
      682.0,
      684.0,
      686.0,
      688.0,
      690.0,
      692.0,
      694.0,
      696.0,
      698.0,
      700.0,
      702.0,
      704.0,
      706.0,
      708.0,
      710.0,
      712.0,
      714.0,
      716.0,
      718.0,
      720.0,
      722.0,
      724.0,
      726.0,
      728.0,
      730.0,
      732.0,
      734.0,
      736.0,
      738.0,
      740.0,
      742.0,
      744.0,
      746.0,
      748.0,
      750.0,
      752.0,
      754.0,
      756.0,
      758.0,
      760.0,
      762.0,
      764.0,
      766.0,
      768.0,
      770.0,
      772.0,
      774.0,
      776.0,
      778.0,
      780.0,
      782.0,
      784.0,
      786.0,
      788.0,
      790.0,
      792.0,
      794.0,
      796.0,
      798.0,
      800.0,
      802.0,
      804.0,
      806.0,
      808.0,
      810.0,
      812.0,
      814.0,
      816.0,
      818.0,
      820.0,
      822.0,
      824.0,
      826.0,
      828.0,
      830.0,
      832.0,
      834.0,
      836.0,
      838.0,
      840.0,
      842.0,
      844.0,
      846.0,
      848.0,
      850.0,
      852.0,
      854.0,
      856.0,
      858.0,
      860.0,
      862.0,
      864.0,
      866.0,
      868.0,
      870.0,
      872.0,
      874.0,
      876.0,
      878.0,
      880.0,
      882.0,
      884.0,
      886.0,
      888.0,
      890.0,
      892.0,
      894.0,
      896.0,
      898.0,
      900.0,
      902.0,
      904.0,
      906.0,
      908.0,
      910.0,
      912.0,
      914.0,
      916.0,
      918.0,
      920.0,
      922.0,
      924.0,
      926.0,
      928.0,
      930.0,
      932.0,
      934.0,
      936.0,
      938.0,
      940.0,
      942.0,
      944.0,
      946.0,
      948.0,
      950.0,
      952.0,
      954.0,
      956.0,
      958.0,
      960.0,
      962.0,
      964.0,
      966.0,
      968.0,
      970.0,
      972.0,
      974.0,
      976.0,
      978.0,
      980.0,
      982.0,
      984.0,
      986.0,
      988.0,
      990.0,
      992.0,
      994.0,
      996.0,
      998.0,
      1000.0
    ],
    "ChromophoreCoefficientType": "FractionalAbsorptionCoefficient",
    "AbsorptionCoefficientUnit": "InverseMillimeters",
    "MolarUnit": "None",
    "WavelengthUnit": "Nanometers",
    "Name": "H2O"
  },
  "Hb": {
    "Spectrum": [
      0.0112736,
      0.0112736,
      0.0112736,
      0.0113824,
      0.011504,
      0.0116296,
      0.0117564,
      0.0118876,
      0.0120208,
      0.0121544,
      0.012288,
      0.0123096,
      0.0121952,
      0.0120808,
      0.011984,
      0.0118872,
      0.0117628,
      0.011482,
      0.0112008,
      0.010714,
      0.0098364,
      0.0091636,
      0.008582,
      0.00771,
      0.0069444,
      0.006444,
      0.00613,
      0.0058828,
      0.0056908,
      0.005762,
      0.0059156,
      0.0062248,
      0.0065344,
      0.0068312,
      0.0071208,
      0.0074508,
      0.0078284,
      0.008206,
      0.0085592,
      0.0088516,
      0.0090856,
      0.0093192,
      0.0095532,
      0.0099792,
      0.0104476,
      0.0108472,
      0.0110996,
      0.0113524,
      0.0116052,
      0.0118752,
      0.0122092,
      0.0125436,
      0.0128776,
      0.013212,
      0.0133632,
      0.013494,
      0.0136044,
      0.0136972,
      0.01379,
      0.0138856,
      0.0139968,
      0.0141084,
      0.0142196,
      0.0143312,
      0.0144424,
      0.0145232,
      0.0145232,
      0.0148668,
      0.0153908,
      0.0159544,
      0.016778,
      0.0180004,
      0.019154,
      0.0202124,
      0.0212712,
      0.0223296,
      0.0236188,
      0.0253368,
      0.0270548,
      0.0287356,
      0.0303956,
      0.0321344,
      0.0342596,
      0.0363848,
      0.038568,
      0.040756,
      0.042988,
      0.04612,
      0.048184,
      0.050084,
      0.05286,
      0.055216,
      0.055216,
      0.054704,
      0.050156,
      0.041328,
      0.036324,
      0.0282724,
      0.0237224,
      0.017332,
      0.0103292,
      0.006264,
      0.003617,
      0.00306988,
      0.00258864,
      0.00233888,
      0.00208912,
      0.00192608,
      0.00181424,
      0.00170256,
      0.00161564,
      0.001531,
      0.00150484,
      0.00147928,
      0.00146572,
      0.001455,
      0.00148812,
      0.00152124,
      0.00155436,
      0.0015898,
      0.0016684,
      0.00174696,
      0.00182556,
      0.00190412,
      0.00198912,
      0.0020862,
      0.00218328,
      0.00228036,
      0.00237744,
      0.00247452,
      0.00257736,
      0.00269368,
      0.00281,
      0.00292632,
      0.00304264,
      0.00315896,
      0.00328512,
      0.00343976,
      0.0035944,
      0.003749,
      0.00390364,
      0.0040584,
      0.0042088,
      0.0043592,
      0.0045092,
      0.0046592,
      0.0048148,
      0.0049708,
      0.0051268,
      0.0052496,
      0.0053412,
      0.005408,
      0.005452,
      0.005454,
      0.0054164,
      0.0053788,
      0.0052276,
      0.0050572,
      0.0048828,
      0.0046948,
      0.0045072,
      0.004334,
      0.0041716,
      0.0040092,
      0.00384676,
      0.003702,
      0.00356764,
      0.00343328,
      0.00328516,
      0.00310752,
      0.00283244,
      0.002547,
      0.00225748,
      0.00198,
      0.00170584,
      0.00146772,
      0.00136224,
      0.00125676,
      0.00115132,
      0.00104776,
      0.00094436,
      0.00085912,
      0.0007762,
      0.00073448,
      0.00069272,
      0.00065096,
      0.00061932,
      0.00059068,
      0.000562,
      0.00053668,
      0.00051488,
      0.00049308,
      0.00047308,
      0.00046024,
      0.00044736,
      0.00043452,
      0.00042168,
      0.00040884,
      0.000396508,
      0.00038576,
      0.000375012,
      0.000364264,
      0.000353516,
      0.000342768,
      0.00033202,
      0.000322656,
      0.000314028,
      0.000305396,
      0.000296768,
      0.00028814,
      0.000279512,
      0.000270884,
      0.000262764,
      0.00025544,
      0.000248116,
      0.000240792,
      0.000233468,
      0.000226148,
      0.000218824,
      0.0002115,
      0.000205196,
      0.000200048,
      0.000194904,
      0.000189756,
      0.000184608,
      0.000179428,
      0.0001741,
      0.000168776,
      0.000163448,
      0.000158352,
      0.000154048,
      0.00014974,
      0.000145436,
      0.000141132,
      0.000136828,
      0.000132588,
      0.000128516,
      0.000124444,
      0.000120368,
      0.00011528,
      0.00011022,
      0.00011022,
      0.00011022,
      0.000110176,
      0.000110048,
      0.000111588,
      0.000116164,
      0.00012074,
      0.000126604,
      0.000133324,
      0.000140524,
      0.000151532,
      0.000154176,
      0.000156048,
      0.000156048,
      0.000154852,
      0.000150844,
      0.000145956,
      0.000141052,
      0.000136132,
      0.000131188,
      0.000126244,
      0.0001213,
      0.000116356,
      0.00011148,
      0.000107544,
      0.000103608,
      9.9672E-05,
      9.5736E-05,
      9.218E-05,
      8.908E-05,
      8.598E-05,
      8.288E-05,
      8.0296E-05,
      7.8236E-05,
      7.6172E-05,
      7.4384E-05,
      7.3708E-05,
      7.3028E-05,
      7.2352E-05,
      7.1708E-05,
      7.1184E-05,
      7.066E-05,
      7.0132E-05,
      6.9608E-05,
      6.9376E-05,
      6.936E-05,
      6.9348E-05,
      6.9332E-05,
      6.932E-05,
      6.9304E-05,
      6.9292E-05,
      6.9276E-05,
      6.9264E-05,
      6.9248E-05,
      6.9236E-05,
      6.922E-05,
      6.9196E-05,
      6.9176E-05,
      6.9152E-05,
      6.9132E-05,
      6.9108E-05,
      6.9088E-05,
      6.9064E-05,
      6.9244E-05,
      6.9432E-05,
      6.962E-05,
      6.9804E-05,
      6.9992E-05,
      7.018E-05,
      7.0584E-05,
      7.0996E-05,
      7.1408E-05,
      7.182E-05,
      7.2232E-05,
      7.2644E-05,
      7.2984E-05,
      7.332E-05,
      7.366E-05,
      7.3996E-05,
      7.436E-05,
      7.4724E-05,
      7.5088E-05,
      7.5452E-05,
      7.5816E-05,
      7.6184E-05,
      7.6504E-05,
      7.6744E-05,
      7.698E-05,
      7.7216E-05,
      7.7456E-05,
      7.7692E-05,
      7.784E-05,
      7.7804E-05,
      7.7772E-05,
      7.7736E-05,
      7.7704E-05,
      7.7664E-05,
      7.7236E-05,
      7.6808E-05,
      7.6384E-05,
      7.5228E-05,
      7.3756E-05,
      7.2288E-05,
      7.0816E-05,
      6.9344E-05,
      6.7872E-05,
      6.6052E-05,
      6.4108E-05,
      6.2164E-05,
      6.0224E-05,
      5.834E-05,
      5.6892E-05,
      5.5448E-05,
      5.4004E-05,
      5.2556E-05,
      5.1112E-05,
      4.9536E-05,
      4.7332E-05,
      4.5132E-05,
      4.2932E-05,
      4.1528E-05,
      4.0228E-05,
      3.89288E-05,
      3.74944E-05,
      3.59656E-05,
      3.44372E-05,
      3.29084E-05,
      3.13796E-05,
      2.98508E-05,
      2.8322E-05,
      2.67932E-05,
      2.52648E-05,
      2.3736E-05,
      2.22072E-05,
      2.06784E-05
    ],
    "Wavelengths": [
      250.0,
      252.0,
      254.0,
      256.0,
      258.0,
      260.0,
      262.0,
      264.0,
      266.0,
      268.0,
      270.0,
      272.0,
      274.0,
      276.0,
      278.0,
      280.0,
      282.0,
      284.0,
      286.0,
      288.0,
      290.0,
      292.0,
      294.0,
      296.0,
      298.0,
      300.0,
      302.0,
      304.0,
      306.0,
      308.0,
      310.0,
      312.0,
      314.0,
      316.0,
      318.0,
      320.0,
      322.0,
      324.0,
      326.0,
      328.0,
      330.0,
      332.0,
      334.0,
      336.0,
      338.0,
      340.0,
      342.0,
      344.0,
      346.0,
      348.0,
      350.0,
      352.0,
      354.0,
      356.0,
      358.0,
      360.0,
      362.0,
      364.0,
      366.0,
      368.0,
      370.0,
      372.0,
      374.0,
      376.0,
      378.0,
      380.0,
      382.0,
      384.0,
      386.0,
      388.0,
      390.0,
      392.0,
      394.0,
      396.0,
      398.0,
      400.0,
      402.0,
      404.0,
      406.0,
      408.0,
      410.0,
      412.0,
      414.0,
      416.0,
      418.0,
      420.0,
      422.0,
      424.0,
      426.0,
      428.0,
      430.0,
      432.0,
      434.0,
      436.0,
      438.0,
      440.0,
      442.0,
      444.0,
      446.0,
      448.0,
      450.0,
      452.0,
      454.0,
      456.0,
      458.0,
      460.0,
      462.0,
      464.0,
      466.0,
      468.0,
      470.0,
      472.0,
      474.0,
      476.0,
      478.0,
      480.0,
      482.0,
      484.0,
      486.0,
      488.0,
      490.0,
      492.0,
      494.0,
      496.0,
      498.0,
      500.0,
      502.0,
      504.0,
      506.0,
      508.0,
      510.0,
      512.0,
      514.0,
      516.0,
      518.0,
      520.0,
      522.0,
      524.0,
      526.0,
      528.0,
      530.0,
      532.0,
      534.0,
      536.0,
      538.0,
      540.0,
      542.0,
      544.0,
      546.0,
      548.0,
      550.0,
      552.0,
      554.0,
      556.0,
      558.0,
      560.0,
      562.0,
      564.0,
      566.0,
      568.0,
      570.0,
      572.0,
      574.0,
      576.0,
      578.0,
      580.0,
      582.0,
      584.0,
      586.0,
      588.0,
      590.0,
      592.0,
      594.0,
      596.0,
      598.0,
      600.0,
      602.0,
      604.0,
      606.0,
      608.0,
      610.0,
      612.0,
      614.0,
      616.0,
      618.0,
      620.0,
      622.0,
      624.0,
      626.0,
      628.0,
      630.0,
      632.0,
      634.0,
      636.0,
      638.0,
      640.0,
      642.0,
      644.0,
      646.0,
      648.0,
      650.0,
      652.0,
      654.0,
      656.0,
      658.0,
      660.0,
      662.0,
      664.0,
      666.0,
      668.0,
      670.0,
      672.0,
      674.0,
      676.0,
      678.0,
      680.0,
      682.0,
      684.0,
      686.0,
      688.0,
      690.0,
      692.0,
      694.0,
      696.0,
      698.0,
      700.0,
      702.0,
      704.0,
      706.0,
      708.0,
      710.0,
      712.0,
      714.0,
      716.0,
      718.0,
      720.0,
      722.0,
      724.0,
      726.0,
      728.0,
      730.0,
      732.0,
      734.0,
      736.0,
      738.0,
      740.0,
      742.0,
      744.0,
      746.0,
      748.0,
      750.0,
      752.0,
      754.0,
      756.0,
      758.0,
      760.0,
      762.0,
      764.0,
      766.0,
      768.0,
      770.0,
      772.0,
      774.0,
      776.0,
      778.0,
      780.0,
      782.0,
      784.0,
      786.0,
      788.0,
      790.0,
      792.0,
      794.0,
      796.0,
      798.0,
      800.0,
      802.0,
      804.0,
      806.0,
      808.0,
      810.0,
      812.0,
      814.0,
      816.0,
      818.0,
      820.0,
      822.0,
      824.0,
      826.0,
      828.0,
      830.0,
      832.0,
      834.0,
      836.0,
      838.0,
      840.0,
      842.0,
      844.0,
      846.0,
      848.0,
      850.0,
      852.0,
      854.0,
      856.0,
      858.0,
      860.0,
      862.0,
      864.0,
      866.0,
      868.0,
      870.0,
      872.0,
      874.0,
      876.0,
      878.0,
      880.0,
      882.0,
      884.0,
      886.0,
      888.0,
      890.0,
      892.0,
      894.0,
      896.0,
      898.0,
      900.0,
      902.0,
      904.0,
      906.0,
      908.0,
      910.0,
      912.0,
      914.0,
      916.0,
      918.0,
      920.0,
      922.0,
      924.0,
      926.0,
      928.0,
      930.0,
      932.0,
      934.0,
      936.0,
      938.0,
      940.0,
      942.0,
      944.0,
      946.0,
      948.0,
      950.0,
      952.0,
      954.0,
      956.0,
      958.0,
      960.0,
      962.0,
      964.0,
      966.0,
      968.0,
      970.0,
      972.0,
      974.0,
      976.0,
      978.0,
      980.0,
      982.0,
      984.0,
      986.0,
      988.0,
      990.0,
      992.0,
      994.0,
      996.0,
      998.0,
      1000.0
    ],
    "ChromophoreCoefficientType": "MolarAbsorptionCoefficient",
    "AbsorptionCoefficientUnit": "InverseMillimeters",
    "MolarUnit": "MicroMolar",
    "WavelengthUnit": "Nanometers",
    "Name": "Hb"
  },
  "HbO2": {
    "Spectrum": [
      0.0106112,
      0.0105552,
      0.010766,
      0.0109788,
      0.0112944,
      0.0116376,
      0.0120188,
      0.0124412,
      0.0128696,
      0.0133064,
      0.0136068,
      0.0137232,
      0.0138408,
      0.0137424,
      0.013582,
      0.0131936,
      0.012772,
      0.012228,
      0.0116508,
      0.0108484,
      0.0104752,
      0.0098936,
      0.0088136,
      0.0079316,
      0.0070884,
      0.0065972,
      0.0063208,
      0.0061952,
      0.0062352,
      0.0062856,
      0.0063352,
      0.0065972,
      0.0069016,
      0.0072404,
      0.0075536,
      0.0078752,
      0.0082256,
      0.0085972,
      0.0089796,
      0.0093768,
      0.0097512,
      0.0100964,
      0.0103504,
      0.0104968,
      0.0106452,
      0.0107884,
      0.010906,
      0.0110092,
      0.0109032,
      0.0107984,
      0.0106576,
      0.010504,
      0.0103696,
      0.0101568,
      0.0097828,
      0.0094744,
      0.0092248,
      0.0089836,
      0.0088484,
      0.0087512,
      0.0088176,
      0.0091592,
      0.009514,
      0.0098936,
      0.0103432,
      0.0109564,
      0.0116968,
      0.012542,
      0.0135132,
      0.01481,
      0.0167748,
      0.018974,
      0.021206,
      0.0231612,
      0.0248404,
      0.0266232,
      0.0284224,
      0.0308716,
      0.0354208,
      0.042232,
      0.046684,
      0.05002,
      0.052428,
      0.052188,
      0.051552,
      0.048036,
      0.043188,
      0.0376236,
      0.0326032,
      0.0283112,
      0.0246072,
      0.021412,
      0.0165332,
      0.013282,
      0.011914,
      0.010258,
      0.009278,
      0.0081444,
      0.0076324,
      0.0067044,
      0.0062816,
      0.0058864,
      0.0053552,
      0.0049496,
      0.0047496,
      0.004448,
      0.004132,
      0.00398072,
      0.00370732,
      0.00348708,
      0.00332092,
      0.003162,
      0.00301136,
      0.00288508,
      0.0027718,
      0.00266292,
      0.00257016,
      0.00251804,
      0.00246696,
      0.00241748,
      0.00236844,
      0.00230868,
      0.00224576,
      0.00218504,
      0.002126,
      0.00209328,
      0.00205964,
      0.0020418,
      0.0019946,
      0.0019996,
      0.00200352,
      0.00201504,
      0.00204292,
      0.00210016,
      0.00225096,
      0.00242024,
      0.00264504,
      0.00292692,
      0.00324964,
      0.003599,
      0.00399568,
      0.0043876,
      0.0046924,
      0.0049752,
      0.0051712,
      0.0053236,
      0.0053292,
      0.0052096,
      0.0049868,
      0.004666,
      0.0043016,
      0.00396752,
      0.00368152,
      0.00344768,
      0.0033456,
      0.00326132,
      0.003262,
      0.00339156,
      0.00364952,
      0.0040172,
      0.0044496,
      0.0049172,
      0.0053308,
      0.005554,
      0.0054728,
      0.0050104,
      0.0043304,
      0.00346396,
      0.00266004,
      0.00197632,
      0.00144008,
      0.00104684,
      0.00076788,
      0.00056836,
      0.00045044,
      0.00032,
      0.0002664,
      0.0002128,
      0.00017892,
      0.00016476,
      0.0001506,
      0.00013644,
      0.00012228,
      0.000111,
      0.0001026,
      9.42E-05,
      8.58E-05,
      7.74E-05,
      7.076E-05,
      6.588E-05,
      6.1E-05,
      5.612E-05,
      5.124E-05,
      4.788E-05,
      4.604E-05,
      4.42E-05,
      4.236E-05,
      4.052E-05,
      3.904E-05,
      3.792E-05,
      3.68E-05,
      3.568E-05,
      3.456E-05,
      3.352E-05,
      3.256E-05,
      3.196E-05,
      3.14E-05,
      3.084E-05,
      3.028E-05,
      2.98E-05,
      2.94E-05,
      2.9E-05,
      2.856E-05,
      2.82E-05,
      2.792E-05,
      2.776E-05,
      2.76E-05,
      2.744E-05,
      2.728E-05,
      2.744E-05,
      2.76E-05,
      2.776E-05,
      2.792E-05,
      2.82E-05,
      2.86E-05,
      2.9E-05,
      2.94E-05,
      2.98E-05,
      3.028E-05,
      3.084E-05,
      3.14E-05,
      3.196E-05,
      3.252E-05,
      3.32E-05,
      3.4E-05,
      3.48E-05,
      3.56E-05,
      3.64E-05,
      3.724E-05,
      3.812E-05,
      3.9E-05,
      3.988E-05,
      4.076E-05,
      4.188E-05,
      4.324E-05,
      4.46E-05,
      4.596E-05,
      4.732E-05,
      4.876E-05,
      5.028E-05,
      5.18E-05,
      5.332E-05,
      5.484E-05,
      5.62E-05,
      5.74E-05,
      5.86E-05,
      5.98E-05,
      6.1E-05,
      6.228E-05,
      6.364E-05,
      6.5E-05,
      6.636E-05,
      6.772E-05,
      6.892E-05,
      6.996E-05,
      7.1E-05,
      7.204E-05,
      7.308E-05,
      7.4E-05,
      7.48E-05,
      7.56E-05,
      7.64E-05,
      7.72E-05,
      7.864E-05,
      8.072E-05,
      8.16E-05,
      8.28E-05,
      8.36E-05,
      8.44E-05,
      8.56E-05,
      8.64E-05,
      8.72E-05,
      8.8E-05,
      8.872E-05,
      9.016E-05,
      9.16E-05,
      9.304E-05,
      9.448E-05,
      9.564E-05,
      9.652E-05,
      9.74E-05,
      9.828E-05,
      9.916E-05,
      0.00010012,
      0.00010116,
      0.0001022,
      0.00010324,
      0.00010428,
      0.000105,
      0.0001054,
      0.0001058,
      0.0001062,
      0.0001066,
      0.00010728,
      0.00010824,
      0.0001092,
      0.00011016,
      0.00011112,
      0.00011184,
      0.00011232,
      0.0001128,
      0.00011328,
      0.00011376,
      0.00011428,
      0.00011484,
      0.0001154,
      0.00011596,
      0.00011652,
      0.000117,
      0.0001174,
      0.0001178,
      0.0001182,
      0.0001186,
      0.000119,
      0.0001194,
      0.0001198,
      0.0001202,
      0.0001206,
      0.00012092,
      0.00012116,
      0.0001214,
      0.00012164,
      0.00012188,
      0.00012208,
      0.00012224,
      0.0001224,
      0.00012256,
      0.00012272,
      0.00012268,
      0.00012244,
      0.0001222,
      0.00012196,
      0.00012172,
      0.00012156,
      0.00012148,
      0.0001214,
      0.00012132,
      0.00012124,
      0.00012104,
      0.00012072,
      0.0001204,
      0.00012008,
      0.00011976,
      0.0001194,
      0.000119,
      0.0001186,
      0.0001182,
      0.0001178,
      0.00011732,
      0.00011676,
      0.0001162,
      0.00011564,
      0.00011508,
      0.0001144,
      0.0001136,
      0.0001128,
      0.000112,
      0.0001112,
      0.00011024,
      0.00010912,
      0.000108,
      0.00010688,
      0.00010576,
      0.00010464,
      0.00010352,
      0.0001024
    ],
    "Wavelengths": [
      250.0,
      252.0,
      254.0,
      256.0,
      258.0,
      260.0,
      262.0,
      264.0,
      266.0,
      268.0,
      270.0,
      272.0,
      274.0,
      276.0,
      278.0,
      280.0,
      282.0,
      284.0,
      286.0,
      288.0,
      290.0,
      292.0,
      294.0,
      296.0,
      298.0,
      300.0,
      302.0,
      304.0,
      306.0,
      308.0,
      310.0,
      312.0,
      314.0,
      316.0,
      318.0,
      320.0,
      322.0,
      324.0,
      326.0,
      328.0,
      330.0,
      332.0,
      334.0,
      336.0,
      338.0,
      340.0,
      342.0,
      344.0,
      346.0,
      348.0,
      350.0,
      352.0,
      354.0,
      356.0,
      358.0,
      360.0,
      362.0,
      364.0,
      366.0,
      368.0,
      370.0,
      372.0,
      374.0,
      376.0,
      378.0,
      380.0,
      382.0,
      384.0,
      386.0,
      388.0,
      390.0,
      392.0,
      394.0,
      396.0,
      398.0,
      400.0,
      402.0,
      404.0,
      406.0,
      408.0,
      410.0,
      412.0,
      414.0,
      416.0,
      418.0,
      420.0,
      422.0,
      424.0,
      426.0,
      428.0,
      430.0,
      432.0,
      434.0,
      436.0,
      438.0,
      440.0,
      442.0,
      444.0,
      446.0,
      448.0,
      450.0,
      452.0,
      454.0,
      456.0,
      458.0,
      460.0,
      462.0,
      464.0,
      466.0,
      468.0,
      470.0,
      472.0,
      474.0,
      476.0,
      478.0,
      480.0,
      482.0,
      484.0,
      486.0,
      488.0,
      490.0,
      492.0,
      494.0,
      496.0,
      498.0,
      500.0,
      502.0,
      504.0,
      506.0,
      508.0,
      510.0,
      512.0,
      514.0,
      516.0,
      518.0,
      520.0,
      522.0,
      524.0,
      526.0,
      528.0,
      530.0,
      532.0,
      534.0,
      536.0,
      538.0,
      540.0,
      542.0,
      544.0,
      546.0,
      548.0,
      550.0,
      552.0,
      554.0,
      556.0,
      558.0,
      560.0,
      562.0,
      564.0,
      566.0,
      568.0,
      570.0,
      572.0,
      574.0,
      576.0,
      578.0,
      580.0,
      582.0,
      584.0,
      586.0,
      588.0,
      590.0,
      592.0,
      594.0,
      596.0,
      598.0,
      600.0,
      602.0,
      604.0,
      606.0,
      608.0,
      610.0,
      612.0,
      614.0,
      616.0,
      618.0,
      620.0,
      622.0,
      624.0,
      626.0,
      628.0,
      630.0,
      632.0,
      634.0,
      636.0,
      638.0,
      640.0,
      642.0,
      644.0,
      646.0,
      648.0,
      650.0,
      652.0,
      654.0,
      656.0,
      658.0,
      660.0,
      662.0,
      664.0,
      666.0,
      668.0,
      670.0,
      672.0,
      674.0,
      676.0,
      678.0,
      680.0,
      682.0,
      684.0,
      686.0,
      688.0,
      690.0,
      692.0,
      694.0,
      696.0,
      698.0,
      700.0,
      702.0,
      704.0,
      706.0,
      708.0,
      710.0,
      712.0,
      714.0,
      716.0,
      718.0,
      720.0,
      722.0,
      724.0,
      726.0,
      728.0,
      730.0,
      732.0,
      734.0,
      736.0,
      738.0,
      740.0,
      742.0,
      744.0,
      746.0,
      748.0,
      750.0,
      752.0,
      754.0,
      756.0,
      758.0,
      760.0,
      762.0,
      764.0,
      766.0,
      768.0,
      770.0,
      772.0,
      774.0,
      776.0,
      778.0,
      780.0,
      782.0,
      784.0,
      786.0,
      788.0,
      790.0,
      792.0,
      794.0,
      796.0,
      798.0,
      800.0,
      802.0,
      804.0,
      806.0,
      808.0,
      810.0,
      812.0,
      814.0,
      816.0,
      818.0,
      820.0,
      822.0,
      824.0,
      826.0,
      828.0,
      830.0,
      832.0,
      834.0,
      836.0,
      838.0,
      840.0,
      842.0,
      844.0,
      846.0,
      848.0,
      850.0,
      852.0,
      854.0,
      856.0,
      858.0,
      860.0,
      862.0,
      864.0,
      866.0,
      868.0,
      870.0,
      872.0,
      874.0,
      876.0,
      878.0,
      880.0,
      882.0,
      884.0,
      886.0,
      888.0,
      890.0,
      892.0,
      894.0,
      896.0,
      898.0,
      900.0,
      902.0,
      904.0,
      906.0,
      908.0,
      910.0,
      912.0,
      914.0,
      916.0,
      918.0,
      920.0,
      922.0,
      924.0,
      926.0,
      928.0,
      930.0,
      932.0,
      934.0,
      936.0,
      938.0,
      940.0,
      942.0,
      944.0,
      946.0,
      948.0,
      950.0,
      952.0,
      954.0,
      956.0,
      958.0,
      960.0,
      962.0,
      964.0,
      966.0,
      968.0,
      970.0,
      972.0,
      974.0,
      976.0,
      978.0,
      980.0,
      982.0,
      984.0,
      986.0,
      988.0,
      990.0,
      992.0,
      994.0,
      996.0,
      998.0,
      1000.0
    ],
    "ChromophoreCoefficientType": "MolarAbsorptionCoefficient",
    "AbsorptionCoefficientUnit": "InverseMillimeters",
    "MolarUnit": "MicroMolar",
    "WavelengthUnit": "Nanometers",
    "Name": "HbO2"
  },
  "Melanin": {
    "Spectrum": [
      36.51594717,
      36.09550579,
      35.68127585,
      35.27314546,
      34.87100511,
      34.47474762,
      34.08426807,
      33.69946373,
      33.32023403,
      32.94648051,
      32.57810674,
      32.21501832,
      31.85712278,
      31.50432955,
      31.15654996,
      30.81369711,
      30.47568591,
      30.14243298,
      29.81385665,
      29.48987688,
      29.17041528,
      28.855395,
      28.54474075,
      28.23837874,
      27.93623665,
      27.6382436,
      27.3443301,
      27.05442806,
      26.7684707,
      26.48639256,
      26.20812948,
      25.93361852,
      25.66279798,
      25.39560736,
      25.13198732,
      24.87187967,
      24.61522734,
      24.36197434,
      24.11206577,
      23.86544775,
      23.62206745,
      23.38187302,
      23.1448136,
      22.91083928,
      22.6799011,
      22.45195099,
      22.22694182,
      22.00482729,
      21.78556198,
      21.56910133,
      21.35540156,
      21.14441973,
      20.93611367,
      20.73044199,
      20.52736405,
      20.3,
      20.1,
      19.93329731,
      19.74020251,
      19.54950905,
      19.3611805,
      19.17518108,
      18.99147565,
      18.8100297,
      18.63080934,
      18.45378125,
      18.27891273,
      18.10617163,
      17.9355264,
      17.76694599,
      17.60039995,
      17.43585831,
      17.27329164,
      17.11267103,
      16.95396807,
      16.79715481,
      16.6422038,
      16.48908807,
      16.3377811,
      16.18825682,
      16.04048961,
      15.89445427,
      15.75012604,
      15.60748057,
      15.46649394,
      15.32714259,
      15.1894034,
      15.0532536,
      14.91867082,
      14.78563306,
      14.65411867,
      14.52410636,
      14.4,
      14.3,
      14.1,
      14.0,
      13.9,
      13.8,
      13.7,
      13.5,
      13.4,
      13.30215854,
      13.18736029,
      13.07383429,
      12.96156332,
      12.85053047,
      12.74071907,
      12.63211272,
      12.52469529,
      12.4184509,
      12.31336392,
      12.20941895,
      12.10660087,
      12.00489475,
      11.90428592,
      11.80475994,
      11.70630259,
      11.60889987,
      11.51253798,
      11.41720336,
      11.32288264,
      11.22956266,
      11.13723048,
      11.04587332,
      10.95547862,
      10.86603401,
      10.7775273,
      10.68994649,
      10.60327976,
      10.51751547,
      10.43264215,
      10.34864851,
      10.26552341,
      10.18325589,
      10.10183517,
      10.02125059,
      9.94149169,
      9.862548134,
      9.784409754,
      9.707066526,
      9.630508575,
      9.554726171,
      9.479709724,
      9.405449787,
      9.331937049,
      9.259162332,
      9.187116596,
      9.115790927,
      9.045176542,
      8.975264784,
      8.906047119,
      8.837515138,
      8.76966055,
      8.702475183,
      8.635950981,
      8.570080002,
      8.504854419,
      8.440266512,
      8.376308673,
      8.312973399,
      8.250253295,
      8.188141066,
      8.126629522,
      8.065711573,
      8.005380226,
      7.945628587,
      7.886449857,
      7.827837331,
      7.769784397,
      7.712284533,
      7.655331308,
      7.598918378,
      7.543039487,
      7.487688465,
      7.432859223,
      7.378545759,
      7.32474215,
      7.271442553,
      7.218641206,
      7.166332423,
      7.114510594,
      7.063170187,
      7.012305742,
      6.961911872,
      6.911983264,
      6.862514674,
      6.813500928,
      6.764936921,
      6.716817616,
      6.669138041,
      6.621893291,
      6.575078525,
      6.528688966,
      6.4827199,
      6.437166674,
      6.392024695,
      6.347289432,
      6.30295641,
      6.259021216,
      6.21547949,
      6.172326931
    ],
    "Wavelengths": [
      600.0,
      602.0,
      604.0,
      606.0,
      608.0,
      610.0,
      612.0,
      614.0,
      616.0,
      618.0,
      620.0,
      622.0,
      624.0,
      626.0,
      628.0,
      630.0,
      632.0,
      634.0,
      636.0,
      638.0,
      640.0,
      642.0,
      644.0,
      646.0,
      648.0,
      650.0,
      652.0,
      654.0,
      656.0,
      658.0,
      660.0,
      662.0,
      664.0,
      666.0,
      668.0,
      670.0,
      672.0,
      674.0,
      676.0,
      678.0,
      680.0,
      682.0,
      684.0,
      686.0,
      688.0,
      690.0,
      692.0,
      694.0,
      696.0,
      698.0,
      700.0,
      702.0,
      704.0,
      706.0,
      708.0,
      710.0,
      712.0,
      714.0,
      716.0,
      718.0,
      720.0,
      722.0,
      724.0,
      726.0,
      728.0,
      730.0,
      732.0,
      734.0,
      736.0,
      738.0,
      740.0,
      742.0,
      744.0,
      746.0,
      748.0,
      750.0,
      752.0,
      754.0,
      756.0,
      758.0,
      760.0,
      762.0,
      764.0,
      766.0,
      768.0,
      770.0,
      772.0,
      774.0,
      776.0,
      778.0,
      780.0,
      782.0,
      784.0,
      786.0,
      788.0,
      790.0,
      792.0,
      794.0,
      796.0,
      798.0,
      800.0,
      802.0,
      804.0,
      806.0,
      808.0,
      810.0,
      812.0,
      814.0,
      816.0,
      818.0,
      820.0,
      822.0,
      824.0,
      826.0,
      828.0,
      830.0,
      832.0,
      834.0,
      836.0,
      838.0,
      840.0,
      842.0,
      844.0,
      846.0,
      848.0,
      850.0,
      852.0,
      854.0,
      856.0,
      858.0,
      860.0,
      862.0,
      864.0,
      866.0,
      868.0,
      870.0,
      872.0,
      874.0,
      876.0,
      878.0,
      880.0,
      882.0,
      884.0,
      886.0,
      888.0,
      890.0,
      892.0,
      894.0,
      896.0,
      898.0,
      900.0,
      902.0,
      904.0,
      906.0,
      908.0,
      910.0,
      912.0,
      914.0,
      916.0,
      918.0,
      920.0,
      922.0,
      924.0,
      926.0,
      928.0,
      930.0,
      932.0,
      934.0,
      936.0,
      938.0,
      940.0,
      942.0,
      944.0,
      946.0,
      948.0,
      950.0,
      952.0,
      954.0,
      956.0,
      958.0,
      960.0,
      962.0,
      964.0,
      966.0,
      968.0,
      970.0,
      972.0,
      974.0,
      976.0,
      978.0,
      980.0,
      982.0,
      984.0,
      986.0,
      988.0,
      990.0,
      992.0,
      994.0,
      996.0,
      998.0,
      1000.0
    ],
    "ChromophoreCoefficientType": "FractionalAbsorptionCoefficient",
    "AbsorptionCoefficientUnit": "InverseMillimeters",
    "MolarUnit": "None",
    "WavelengthUnit": "Nanometers",
    "Name": "Melanin"
  },
  "Nigrosin": {
    "Spectrum": [
      1.587865789,
      1.597666855,
      1.605151395,
      1.604897754,
      1.605447859,
      1.60307372,
      1.600205407,
      1.595295975,
      1.591619676,
      1.582157181,
      1.567674409,
      1.549790716,
      1.532006505,
      1.506557358,
      1.47674979,
      1.447348231,
      1.415290654,
      1.37849296,
      1.342083445,
      1.306179819,
      1.270336615,
      1.234860615,
      1.199969015,
      1.166833567,
      1.135692912,
      1.106086842,
      1.078595786,
      1.05219355,
      1.029879435,
      1.01171857,
      0.99902253,
      0.98946336,
      0.98235366,
      0.977581004,
      0.974155532,
      0.973516375,
      0.975350512,
      0.98024867,
      0.987226412,
      0.994409137,
      1.002365066,
      1.010252194,
      1.017587446,
      1.02320691,
      1.026381502,
      1.027307157,
      1.023780458,
      1.018281812,
      1.010454729,
      0.998593282,
      0.933308349,
      0.880814595,
      0.8515329,
      0.822743468,
      0.79430479,
      0.769361945,
      0.747352874,
      0.725262401,
      0.703150277,
      0.681149222,
      0.659176812,
      0.637132458,
      0.615163625,
      0.593319239,
      0.571738485,
      0.550441431,
      0.529432411,
      0.508847711,
      0.488492542,
      0.468643514,
      0.449305973,
      0.430429291,
      0.412043663,
      0.394250834,
      0.377063124,
      0.360550242,
      0.344729327,
      0.32960135,
      0.315104374,
      0.301249946,
      0.288107182,
      0.275589382,
      0.263639227,
      0.252275949,
      0.241413476,
      0.231059768,
      0.221217931,
      0.211914903,
      0.203140408,
      0.194814648,
      0.186925874,
      0.179453949,
      0.172365641,
      0.165653494,
      0.159285036,
      0.153272132,
      0.147568299,
      0.142149593,
      0.137072684,
      0.132329268,
      0.127884837,
      0.123742141,
      0.119869073,
      0.116282926,
      0.112951847,
      0.109860474,
      0.1069528,
      0.104218943,
      0.101650947,
      0.099249156,
      0.097038813,
      0.094981329,
      0.093026655,
      0.091204171,
      0.089496742,
      0.087914115,
      0.086408186,
      0.084988382,
      0.083642909,
      0.0823267,
      0.081066191,
      0.07986292,
      0.078697102,
      0.077558073,
      0.076413189,
      0.075307897,
      0.074222531,
      0.073134956,
      0.07210942,
      0.071102138,
      0.070093894,
      0.069040901,
      0.068037107,
      0.067056923,
      0.066086073,
      0.065130876,
      0.064158334,
      0.063174117,
      0.062247873,
      0.06132801,
      0.060413762,
      0.059579486,
      0.05873202,
      0.057889105,
      0.057095939,
      0.056384376,
      0.055620623,
      0.054735989,
      0.053981489,
      0.053219099,
      0.052443815,
      0.051804636,
      0.051117119,
      0.050451958,
      0.049843522,
      0.049231406,
      0.048745664,
      0.048226104,
      0.047954813,
      0.047590786,
      0.047134163,
      0.046678438,
      0.046255628,
      0.045906637,
      0.04543635,
      0.045023015,
      0.044690673,
      0.044217391,
      0.043635568,
      0.043368063,
      0.043096531,
      0.04271932,
      0.042383998,
      0.042297409,
      0.041876658,
      0.041548501,
      0.041024211,
      0.040623345,
      0.040366108,
      0.040223285,
      0.040110912,
      0.039525313,
      0.039185337,
      0.039368834,
      0.039131041,
      0.039114677,
      0.039193843,
      0.039017126,
      0.038499318,
      0.038218488,
      0.037961783,
      0.037345927,
      0.037637174,
      0.037020911,
      0.036913689,
      0.036469168,
      0.036033893,
      0.035097951,
      0.034619242,
      0.033901308,
      0.032923015
    ],
    "Wavelengths": [
      600.0,
      602.0,
      604.0,
      606.0,
      608.0,
      610.0,
      612.0,
      614.0,
      616.0,
      618.0,
      620.0,
      622.0,
      624.0,
      626.0,
      628.0,
      630.0,
      632.0,
      634.0,
      636.0,
      638.0,
      640.0,
      642.0,
      644.0,
      646.0,
      648.0,
      650.0,
      652.0,
      654.0,
      656.0,
      658.0,
      660.0,
      662.0,
      664.0,
      666.0,
      668.0,
      670.0,
      672.0,
      674.0,
      676.0,
      678.0,
      680.0,
      682.0,
      684.0,
      686.0,
      688.0,
      690.0,
      692.0,
      694.0,
      696.0,
      698.0,
      700.0,
      702.0,
      704.0,
      706.0,
      708.0,
      710.0,
      712.0,
      714.0,
      716.0,
      718.0,
      720.0,
      722.0,
      724.0,
      726.0,
      728.0,
      730.0,
      732.0,
      734.0,
      736.0,
      738.0,
      740.0,
      742.0,
      744.0,
      746.0,
      748.0,
      750.0,
      752.0,
      754.0,
      756.0,
      758.0,
      760.0,
      762.0,
      764.0,
      766.0,
      768.0,
      770.0,
      772.0,
      774.0,
      776.0,
      778.0,
      780.0,
      782.0,
      784.0,
      786.0,
      788.0,
      790.0,
      792.0,
      794.0,
      796.0,
      798.0,
      800.0,
      802.0,
      804.0,
      806.0,
      808.0,
      810.0,
      812.0,
      814.0,
      816.0,
      818.0,
      820.0,
      822.0,
      824.0,
      826.0,
      828.0,
      830.0,
      832.0,
      834.0,
      836.0,
      838.0,
      840.0,
      842.0,
      844.0,
      846.0,
      848.0,
      850.0,
      852.0,
      854.0,
      856.0,
      858.0,
      860.0,
      862.0,
      864.0,
      866.0,
      868.0,
      870.0,
      872.0,
      874.0,
      876.0,
      878.0,
      880.0,
      882.0,
      884.0,
      886.0,
      888.0,
      890.0,
      892.0,
      894.0,
      896.0,
      898.0,
      900.0,
      902.0,
      904.0,
      906.0,
      908.0,
      910.0,
      912.0,
      914.0,
      916.0,
      918.0,
      920.0,
      922.0,
      924.0,
      926.0,
      928.0,
      930.0,
      932.0,
      934.0,
      936.0,
      938.0,
      940.0,
      942.0,
      944.0,
      946.0,
      948.0,
      950.0,
      952.0,
      954.0,
      956.0,
      958.0,
      960.0,
      962.0,
      964.0,
      966.0,
      968.0,
      970.0,
      972.0,
      974.0,
      976.0,
      978.0,
      980.0,
      982.0,
      984.0,
      986.0,
      988.0,
      990.0,
      992.0,
      994.0,
      996.0,
      998.0,
      1000.0
    ],
    "ChromophoreCoefficientType": "MolarAbsorptionCoefficient",
    "AbsorptionCoefficientUnit": "InverseMillimeters",
    "MolarUnit": "MicroMolar",
    "WavelengthUnit": "Nanometers",
    "Name": "Nigrosin"
  }
}